angle_roll,angle_pitch,gyro_x,gyro_y,gyro_z,pid_roll,pid_pitch,pid_yaw,m1,m2,m3,m4,rc_roll,rc_pitch,rc_yaw,rc_thr,battery_mv,i2c_errors,accel_z_raw
-0.01,-0.14,-0.04,-0.02,0.00,0.01,0.01,-0.00,1000,1000,1000,1000,1501,1531,1508,1032,11865,1,1.00
-0.01,-0.14,-0.05,0.01,-0.04,0.01,-0.00,0.00,1000,1000,1000,1000,1501,1531,1509,1031,11865,1,1.00
-0.01,-0.14,-0.01,-0.01,0.00,0.00,0.00,-0.00,1000,1000,1000,1000,1501,1531,1509,1031,11865,1,1.00
-0.01,-0.14,-0.02,-0.02,0.06,0.01,0.01,-0.00,1000,1000,1000,1000,1501,1533,1509,1031,11865,1,1.00
-0.01,-0.14,0.01,0.01,0.02,-0.00,-0.00,0.00,1000,1000,1000,1000,1501,1533,1509,1031,11865,1,1.00
-0.01,-0.14,0.04,-0.01,0.06,-0.01,0.00,-0.00,1150,1150,1150,1150,1501,1533,1508,1032,11865,1,1.00
-0.01,-0.14,0.01,-0.04,0.05,-0.00,0.01,-0.00,1150,1150,1150,1150,1501,1531,1508,1032,11865,1,1.00
-0.01,-0.14,-0.07,-0.08,-0.07,0.02,0.03,0.00,1150,1150,1150,1150,1501,1531,1508,1032,11865,1,1.00
-0.01,-0.14,-0.03,-0.25,-0.08,0.01,0.07,0.00,1150,1150,1150,1150,1501,1531,1508,1033,11865,1,1.00
-0.01,-0.14,-0.08,0.12,0.16,0.02,-0.04,-0.00,1150,1150,1150,1150,1501,1531,1508,1033,11865,1,1.00
-0.01,-0.14,0.39,0.05,0.01,-0.12,-0.02,0.00,1150,1150,1150,1150,1501,1531,1508,1032,11865,1,1.00
-0.01,-0.13,-0.18,0.10,-0.19,0.05,-0.03,0.00,1150,1150,1150,1150,1502,1531,1508,1033,11865,1,1.00
-0.01,-0.14,0.23,-0.23,0.05,-0.07,0.07,-0.00,1150,1150,1150,1150,1502,1531,1508,1033,11865,1,1.00
-0.01,-0.14,0.23,0.02,0.18,-0.07,-0.01,-0.00,1150,1150,1150,1150,1502,1531,1508,1032,11865,1,1.00
-0.01,-0.14,-0.14,0.04,0.06,0.04,-0.01,0.00,1150,1150,1150,1150,1502,1531,1508,1032,11865,1,1.00
-0.01,-0.14,-0.00,-0.07,-0.13,0.00,0.02,0.00,1150,1150,1150,1150,1502,1531,1508,1032,11865,1,1.00
-0.01,-0.14,0.07,0.02,0.17,-0.02,-0.01,-0.00,1150,1150,1150,1150,1501,1532,1508,1032,11865,1,1.00
-0.01,-0.13,-0.80,-0.22,-0.03,0.24,0.07,0.00,1150,1150,1150,1150,1501,1532,1508,1032,11865,1,1.00
-0.01,-0.14,-0.25,-0.62,0.10,0.08,0.19,-0.00,1150,1150,1150,1150,1501,1532,1508,1032,11865,1,1.00
-0.01,-0.14,-0.54,-1.22,0.25,0.16,0.37,-0.00,1150,1150,1150,1150,1501,1532,1508,1032,11865,1,1.00
-0.01,-0.14,0.00,-0.82,0.15,-0.00,0.25,-0.00,1150,1150,1150,1150,1501,1532,1508,1032,11865,1,1.00
-0.01,-0.14,-0.28,-0.65,0.11,0.08,0.20,-0.00,1150,1150,1150,1150,1501,1532,1508,1032,11865,1,0.99
-0.01,-0.13,0.32,0.84,-0.07,-0.10,-0.25,0.00,1150,1150,1150,1150,1501,1532,1508,1032,11865,1,1.00
-0.01,-0.13,0.20,-0.17,0.14,-0.06,0.05,-0.00,1150,1150,1150,1150,1501,1532,1507,1032,11865,1,1.00
-0.01,-0.13,-0.12,0.07,0.03,0.04,-0.02,-0.00,1150,1150,1150,1150,1501,1532,1507,1032,11865,1,1.00
-0.02,-0.12,-1.16,0.14,0.16,0.35,-0.04,-0.00,1150,1150,1150,1150,1501,1532,1507,1032,11865,1,1.02
-0.02,-0.13,-0.58,-1.53,0.06,0.17,0.46,-0.00,1150,1150,1150,1150,1500,1532,1508,1032,11865,1,1.00
-0.02,-0.12,-0.05,-0.88,0.08,0.01,0.26,-0.00,1150,1150,1150,1150,1500,1532,1508,1032,11865,1,1.01
-0.01,-0.13,0.08,-0.83,-0.01,-0.02,0.25,0.00,1150,1150,1150,1150,1500,1532,1508,1032,11865,1,1.00
-0.01,-0.12,-0.10,0.64,-0.22,0.03,-0.19,0.00,1150,1150,1150,1150,1500,1532,1508,1032,11865,1,1.01
-0.01,-0.12,1.08,0.93,-0.43,-0.32,-0.28,0.00,1150,1150,1150,1150,1500,1532,1508,1032,11865,1,1.00
-0.02,-0.13,0.07,0.07,0.44,-0.02,-0.02,-0.00,1150,1150,1150,1150,1500,1532,1508,1032,11865,1,0.99
-0.01,-0.15,-0.35,-1.76,0.25,0.11,0.53,0.00,1150,1150,1150,1150,1500,1532,1508,1032,11865,1,0.98
-0.01,-0.14,0.10,2.08,0.09,-0.03,-0.63,0.00,1150,1150,1150,1150,1500,1532,1508,1032,11865,1,0.99
-0.01,-0.10,-0.39,5.40,-0.69,0.12,-1.62,0.00,1150,1150,1150,1150,1500,1532,1508,1032,11865,1,1.03
-0.02,-0.10,-0.44,1.63,0.42,0.13,-0.49,-0.00,1150,1150,1150,1150,1500,1532,1508,1032,11865,1,1.02
-0.02,-0.11,-0.24,-1.73,0.78,0.07,0.52,0.00,1150,1150,1150,1150,1500,1532,1508,1032,11865,1,1.01
-0.02,-0.09,-0.83,1.12,-0.97,0.25,-0.33,0.00,1150,1150,1150,1150,1500,1532,1508,1032,11828,1,1.04
-0.02,-0.11,0.75,-1.07,1.06,-0.22,0.32,-0.00,1150,1150,1150,1150,1500,1532,1508,1032,11828,1,0.98
-0.00,-0.09,2.20,5.08,-0.69,-0.66,-1.53,0.00,1150,1150,1150,1150,1501,1532,1508,1032,11828,1,0.99
-0.02,-0.11,-0.16,-1.60,-0.05,0.05,0.48,0.00,1150,1150,1150,1150,1501,1532,1508,1032,11828,1,1.00
-0.02,-0.08,0.07,1.71,-0.18,-0.02,-0.51,0.00,1150,1150,1150,1150,1501,1532,1508,1032,11828,1,1.00
-0.03,-0.08,-1.71,-2.83,0.10,0.51,0.85,-0.00,1150,1150,1150,1150,1501,1532,1508,1032,11828,1,1.03
-0.02,-0.09,-0.11,1.20,-0.33,0.03,-0.36,0.00,1150,1150,1150,1150,1501,1532,1508,1032,11828,1,1.01
-0.03,-0.10,-2.95,-3.99,0.27,0.88,1.20,-0.00,1150,1150,1150,1150,1500,1543,1508,1032,11828,1,1.00
-0.01,-0.08,0.14,1.40,-0.16,-0.04,-0.42,0.00,1150,1150,1150,1150,1500,1543,1508,1021,11828,1,1.03
-0.03,-0.08,-0.84,-2.76,0.42,0.25,0.83,-0.00,1150,1150,1150,1150,1500,1532,1508,1032,11828,1,1.01
-0.01,-0.05,1.56,3.82,-1.02,-0.47,-1.15,0.00,1150,1150,1150,1150,1500,1532,1508,1032,11828,1,1.01
-0.02,-0.08,-0.41,-2.49,0.87,0.12,0.75,-0.00,1150,1150,1150,1150,1500,1532,1508,1032,11828,1,1.01
-0.01,-0.06,-0.46,1.04,-0.42,0.14,-0.31,0.00,1150,1150,1150,1150,1500,1532,1508,1032,11828,1,1.00
-0.01,-0.07,1.23,3.06,0.27,-0.37,-0.92,-0.00,1150,1150,1150,1150,1500,1532,1508,1032,11828,1,1.02
-0.02,-0.08,-4.16,-4.08,-0.80,1.25,1.22,0.00,1150,1150,1150,1150,1500,1532,1508,1032,11828,1,1.00
-0.00,-0.06,1.91,1.49,1.13,-0.57,-0.45,-0.00,1150,1150,1150,1150,1500,1532,1508,1032,11828,1,1.02
-0.02,-0.09,-1.72,-2.60,-0.48,0.52,0.78,0.00,1150,1150,1150,1150,1500,1532,1508,1032,11828,1,1.02
0.02,-0.07,2.45,-1.67,0.53,-0.74,0.50,0.00,1150,1150,1150,1150,1500,1531,1508,1032,11828,1,1.01
0.00,-0.07,2.94,2.87,-1.36,-0.88,-0.86,0.00,1150,1150,1150,1150,1500,1531,1508,1032,11828,1,0.98
-0.01,-0.08,-3.90,-1.15,-1.18,1.17,0.35,0.00,1150,1150,1150,1150,1500,1532,1508,1032,11828,1,0.98
-0.00,-0.07,0.28,-0.79,0.74,-0.08,0.24,-0.00,1150,1150,1150,1150,1500,1532,1508,1032,11828,1,0.99
-0.01,-0.09,-1.34,1.26,-1.23,0.40,-0.38,0.00,1150,1150,1150,1150,1501,1532,1507,1032,11828,1,1.00
0.01,-0.11,1.07,-7.32,0.43,-0.32,2.20,0.00,1150,1150,1150,1150,1501,1532,1507,1032,11828,1,1.02
0.01,-0.04,1.96,4.72,0.72,-0.59,-1.41,-0.00,1150,1150,1150,1150,1501,1532,1507,1032,11828,1,1.00
0.00,-0.07,0.91,3.67,-1.92,-0.27,-1.10,0.00,1150,1150,1150,1150,1501,1532,1507,1032,11828,1,1.01
-0.01,-0.08,-2.59,-4.50,1.10,0.78,1.35,-0.00,1150,1150,1150,1150,1501,1532,1507,1032,11828,1,1.02
0.01,-0.05,0.82,6.28,0.34,-0.25,-1.88,-0.00,1150,1150,1150,1150,1501,1533,1508,1031,11828,1,1.02
-0.01,-0.11,1.12,-5.34,-0.36,-0.34,1.60,0.00,1150,1150,1150,1150,1501,1533,1508,1031,11828,1,1.05
-0.01,-0.09,-4.21,-3.18,-0.11,1.26,0.96,0.00,1150,1150,1150,1150,1501,1533,1508,1031,11828,1,1.03
0.01,-0.08,3.94,5.72,0.39,-1.18,-1.72,-0.00,1150,1150,1150,1150,1501,1531,1508,1032,11828,1,0.99
-0.04,-0.12,-4.65,-4.37,0.18,1.39,1.31,-0.00,1150,1150,1150,1150,1501,1531,1508,1032,11828,1,0.99
-0.01,-0.10,-4.40,0.67,0.67,1.32,-0.20,-0.00,1150,1150,1150,1150,1501,1531,1508,1033,11828,1,0.98
-0.00,-0.12,6.92,-1.32,1.98,-2.07,0.40,-0.00,1150,1150,1150,1150,1501,1532,1508,1033,11828,1,0.99
-0.05,-0.14,-2.82,-1.00,-1.71,0.85,0.30,0.00,1150,1150,1150,1150,1501,1532,1508,1033,11828,1,0.96
0.01,-0.14,4.06,2.11,0.28,-1.22,-0.63,0.00,1150,1150,1150,1150,1501,1532,1508,1032,11828,1,0.95
-0.02,-0.15,3.06,-2.39,1.50,-0.92,0.72,-0.00,1150,1150,1150,1150,1501,1532,1508,1032,11828,1,0.98
-0.04,-0.14,-7.33,0.67,-1.95,2.20,-0.20,0.00,1150,1150,1150,1150,1501,1532,1508,1032,11828,1,0.99
0.01,-0.15,2.99,-4.02,2.39,-0.90,1.21,-0.00,1150,1150,1150,1150,1501,1532,1508,1032,11828,1,0.96
-0.03,-0.13,-1.89,-0.13,1.83,0.57,0.04,-0.00,1150,1150,1150,1150,1501,1532,1508,1032,11828,1,1.03
-0.02,-0.14,-4.08,3.82,-0.93,1.22,-1.15,0.00,1150,1150,1150,1150,1501,1532,1508,1032,11828,1,0.99
-0.00,-0.16,3.03,-4.19,1.24,-0.91,1.26,-0.00,1150,1150,1150,1150,1501,1532,1508,1032,11828,1,0.96
-0.03,-0.14,-0.25,-2.31,0.31,0.08,0.69,-0.00,1150,1150,1150,1150,1501,1532,1508,1032,11828,1,0.99
-0.02,-0.13,2.73,4.88,-1.57,-0.82,-1.46,0.00,1150,1150,1150,1150,1501,1532,1508,1032,11828,1,0.98
-0.04,-0.17,-3.22,-3.06,2.24,0.97,0.92,-0.00,1150,1150,1150,1150,1501,1532,1508,1032,11828,1,0.98
-0.03,-0.14,-2.12,-1.43,0.88,0.64,0.43,-0.00,1150,1150,1150,1150,1501,1532,1508,1032,11828,1,1.01
-0.02,-0.14,5.80,4.64,-0.89,-1.74,-1.39,0.00,1150,1150,1150,1150,1501,1532,1508,1032,11828,1,0.97
-0.06,-0.16,-4.19,-0.57,0.68,1.26,0.17,0.00,1150,1150,1150,1150,1501,1532,1510,1032,11828,1,0.97
-0.02,-0.13,0.99,-2.28,1.25,-0.30,0.68,-0.00,1150,1150,1150,1150,1501,1532,1510,1032,11828,1,0.97
-0.01,-0.09,7.51,5.99,-0.44,-2.25,-1.80,0.00,1150,1150,1150,1150,1501,1532,1510,1032,11828,1,1.02
-0.06,-0.13,-5.08,-1.34,-0.60,1.52,0.40,0.00,1150,1150,1150,1150,1501,1532,1510,1032,11828,1,1.00
-0.00,-0.10,2.62,-2.17,2.19,-0.78,0.65,-0.00,1150,1150,1150,1150,1501,1532,1510,1032,11828,1,1.01
-0.07,-0.09,-3.98,0.82,1.35,1.20,-0.25,-0.00,1150,1150,1150,1150,1501,1532,1510,1032,11828,1,0.96
-0.08,-0.14,-8.96,-2.16,0.01,2.69,0.65,-0.00,1150,1150,1150,1150,1501,1532,1510,1032,11828,1,0.93
-0.04,-0.16,3.45,-12.06,1.96,-1.03,3.62,-0.00,1150,1150,1150,1150,1501,1532,1509,1032,11828,1,0.97
-0.06,-0.06,1.77,5.30,-0.94,-0.53,-1.59,0.00,1150,1150,1150,1150,1501,1532,1509,1032,11828,1,1.02
-0.05,-0.07,-1.06,8.17,-1.33,0.32,-2.45,0.00,1150,1150,1150,1150,1501,1532,1509,1032,11828,1,1.01
-0.05,-0.13,1.87,-12.04,2.54,-0.56,3.61,-0.00,1150,1150,1150,1150,1501,1532,1508,1032,11828,1,1.05
-0.03,-0.03,3.13,5.10,-1.22,-0.94,-1.53,0.00,1150,1150,1150,1150,1501,1532,1508,1032,11828,1,1.04
-0.03,-0.07,5.40,8.16,-2.37,-1.62,-2.45,0.00,1150,1150,1150,1150,1501,1532,1508,1032,11828,1,0.96
-0.09,-0.15,-6.09,-14.86,1.05,1.83,4.46,-0.00,1150,1150,1150,1150,1501,1532,1508,1032,11828,1,1.02
-0.02,-0.05,0.81,-0.18,-0.22,-0.24,0.05,0.00,1150,1150,1150,1150,1501,1532,1508,1032,11828,1,0.99
-0.01,-0.06,11.85,12.78,-0.50,-3.55,-3.83,0.00,1150,1150,1150,1150,1501,1532,1508,1032,11828,1,0.95
-0.10,-0.16,-9.44,-16.36,2.97,2.83,4.91,-0.00,1150,1150,1150,1150,1501,1532,1508,1032,11828,1,1.01
-0.02,-0.05,-0.86,3.62,0.79,0.26,-1.09,-0.00,1150,1150,1150,1150,1501,1532,1508,1032,11828,1,0.99
-0.01,-0.06,13.57,12.18,-0.41,-4.07,-3.65,0.00,1150,1150,1150,1150,1501,1532,1508,1032,11828,1,1.00
-0.09,-0.14,-6.66,-10.61,1.02,2.00,3.18,-0.00,1150,1150,1150,1150,1501,1532,1508,1032,11828,1,1.02
-0.00,-0.09,2.97,-4.41,0.02,-0.89,1.32,-0.00,1150,1150,1150,1150,1501,1532,1508,1032,11828,1,0.96
-0.02,-0.06,9.55,8.93,-0.44,-2.87,-2.68,0.00,1150,1150,1150,1150,1501,1532,1508,1032,11828,1,0.98
-0.09,-0.12,-7.80,-7.33,-1.60,2.34,2.20,0.00,1150,1150,1150,1150,1501,1532,1508,1032,11828,1,1.04
-0.02,-0.10,-0.61,-6.60,-1.00,0.18,1.98,0.00,1150,1150,1150,1150,1501,1532,1508,1032,11828,1,0.98
-0.06,-0.07,-1.80,6.84,2.44,0.54,-2.05,-0.00,1150,1150,1150,1150,1501,1532,1508,1032,11828,1,0.98
-0.09,-0.15,-5.53,-1.88,0.10,1.66,0.56,0.00,1150,1150,1150,1150,1501,1532,1508,1032,11828,1,0.96
-0.07,-0.16,-6.84,-9.90,-1.48,2.05,2.97,0.00,1150,1150,1150,1150,1501,1532,1508,1032,11828,1,0.91
-0.04,-0.07,3.64,5.72,-0.72,-1.09,-1.72,0.00,1150,1150,1150,1150,1501,1532,1507,1032,11828,1,1.01
-0.05,-0.12,3.83,9.58,-0.48,-1.15,-2.87,0.00,1150,1150,1150,1150,1501,1532,1506,1032,11828,1,0.97
-0.08,-0.17,-8.57,-10.45,0.79,2.57,3.13,0.00,1150,1150,1150,1150,1501,1532,1506,1032,11828,1,0.99
-0.05,-0.10,-1.40,-1.13,-0.38,0.42,0.34,0.00,1150,1150,1150,1150,1501,1532,1506,1032,11828,1,1.02
-0.03,-0.10,9.17,13.18,-0.40,-2.75,-3.95,0.00,1150,1150,1150,1150,1501,1532,1506,1032,11828,1,0.99
-0.10,-0.20,-3.90,-11.60,0.66,1.17,3.48,-0.00,1150,1150,1150,1150,1501,1532,1506,1032,11828,1,1.02
-0.06,-0.14,-6.06,-5.22,-0.73,1.82,1.57,0.00,1150,1150,1150,1150,1501,1532,1506,1032,11828,1,1.02
-0.01,-0.11,12.62,12.34,2.43,-3.78,-3.70,0.00,1150,1150,1150,1150,1501,1532,1506,1032,11828,1,0.95
-0.14,-0.17,-8.34,-5.15,1.82,2.50,1.54,-0.00,1150,1150,1150,1150,1501,1532,1506,1032,11828,1,1.03
-0.09,-0.11,-12.61,-5.20,-1.62,3.78,1.56,0.00,1150,1150,1150,1150,1501,1532,1506,1032,11828,1,1.03
-0.01,-0.12,13.37,4.78,3.09,-4.01,-1.43,-0.00,1150,1150,1150,1150,1501,1532,1507,1032,11828,1,0.97
-0.13,-0.16,-7.64,-3.50,0.87,2.29,1.05,-0.00,1150,1150,1150,1150,1500,1532,1507,1032,11803,1,1.05
-0.09,-0.05,-10.77,7.88,-0.50,3.23,-2.36,0.00,1150,1150,1150,1150,1500,1532,1507,1032,11803,1,1.07
-0.03,-0.14,13.60,0.40,1.70,-4.08,-0.12,0.00,1150,1150,1150,1150,1500,1532,1507,1032,11803,1,0.97
-0.12,-0.12,-6.08,-0.25,0.32,1.82,0.08,-0.00,1150,1150,1150,1150,1500,1532,1507,1032,11803,1,1.03
-0.08,-0.05,-0.46,11.79,-1.90,0.14,-3.54,0.00,1150,1150,1150,1150,1500,1532,1507,1033,11803,1,1.10
-0.09,-0.08,1.60,-3.02,1.92,-0.48,0.91,0.00,1150,1150,1150,1150,1501,1532,1507,1033,11803,1,1.04
-0.09,-0.06,-0.44,-3.43,1.71,0.13,1.03,-0.00,1150,1150,1150,1150,1501,1532,1507,1033,11803,1,1.01
-0.09,-0.07,1.94,2.33,-2.00,-0.58,-0.70,0.00,1150,1150,1150,1150,1501,1532,1507,1033,11803,1,0.99
-0.13,-0.09,-4.60,-2.00,2.21,1.38,0.60,-0.00,1150,1150,1150,1150,1501,1532,1507,1033,11803,1,0.98
-0.09,-0.06,0.15,-1.79,1.71,-0.05,0.54,-0.00,1150,1150,1150,1150,1501,1532,1510,1040,11803,1,1.04
-0.09,-0.06,5.00,5.16,0.08,-1.50,-1.55,0.00,1150,1150,1150,1150,1501,1532,1510,1043,11803,1,1.01
-0.13,-0.08,-4.31,0.46,0.76,1.29,-0.14,-0.00,1150,1150,1150,1150,1501,1532,1510,1043,11803,1,1.00
-0.09,-0.06,0.07,-2.71,0.15,-0.02,0.81,0.00,1150,1150,1150,1150,1501,1532,1509,1047,11803,1,1.02
-0.08,-0.08,10.46,-0.97,-0.88,-3.14,0.29,0.00,1150,1150,1150,1150,1501,1532,1509,1047,11803,1,1.00
-0.12,-0.10,-3.39,-0.24,-2.28,1.02,0.07,0.00,1150,1150,1150,1150,1501,1532,1509,1061,11803,1,0.95
-0.08,-0.12,-0.56,-2.15,0.80,0.17,0.64,0.00,1150,1150,1150,1150,1501,1532,1510,1063,11803,1,0.93
-0.08,-0.07,5.91,0.12,0.99,-1.77,-0.04,-0.00,1150,1150,1150,1150,1501,1532,1510,1063,11803,1,0.99
-0.09,-0.05,-0.53,4.29,-3.31,0.16,-1.29,0.00,1150,1150,1150,1150,1501,1532,1510,1070,11803,1,0.98
-0.07,-0.06,0.27,-0.46,-0.94,-0.08,0.14,0.00,1150,1150,1150,1150,1501,1532,1510,1070,11803,1,1.04
-0.11,-0.04,-8.36,-7.87,0.73,2.51,2.36,-0.00,1150,1150,1150,1150,1501,1532,1510,1070,11803,1,1.04
-0.09,0.01,-2.37,13.32,-2.33,0.71,-4.00,0.00,1150,1150,1150,1150,1501,1532,1510,1095,11803,1,1.00
-0.08,-0.08,1.67,-2.13,1.45,-0.50,0.64,0.00,1150,1150,1150,1150,1501,1532,1510,1095,11803,1,1.01
-0.10,-0.04,-8.65,-10.99,-0.09,2.59,3.30,0.00,1150,1150,1150,1150,1501,1532,1510,1108,11803,1,1.06
-0.04,0.07,4.74,18.85,-1.64,-1.42,-5.65,0.00,1150,1150,1150,1150,1501,1532,1510,1108,11803,1,1.03
-0.10,-0.07,-0.58,-3.10,1.68,0.17,0.93,0.00,1150,1150,1150,1150,1501,1532,1509,1112,11803,1,1.03
-0.10,-0.06,-11.64,-16.55,0.33,3.49,4.96,0.00,1150,1150,1150,1150,1501,1532,1509,1141,11803,1,1.04
-0.00,0.04,12.22,16.71,-1.79,-3.67,-5.01,0.00,1150,1150,1150,1150,1501,1532,1509,1141,11803,1,1.00
-0.10,-0.05,-0.93,0.14,1.53,0.28,-0.04,-0.00,1150,1150,1150,1150,1501,1532,1510,1160,11803,1,1.04
-0.09,-0.05,-12.85,-11.88,0.28,3.85,3.56,0.00,1150,1150,1150,1150,1501,1532,1510,1160,11803,1,1.01
0.01,0.01,11.13,7.07,0.72,-3.34,-2.12,0.00,1150,1150,1150,1150,1501,1532,1510,1161,11803,1,0.99
-0.10,-0.04,-1.50,3.66,1.61,0.45,-1.10,-0.00,1150,1150,1150,1150,1501,1532,1510,1166,11803,1,1.03
-0.11,-0.09,-14.36,-9.86,-0.26,4.31,2.96,0.00,1150,1150,1150,1150,1501,1532,1510,1166,11803,1,0.99
-0.02,-0.05,9.76,1.14,0.39,-2.93,-0.34,0.00,1150,1150,1150,1150,1501,1532,1510,1177,11803,1,0.98
-0.07,-0.01,4.36,5.62,1.34,-1.31,-1.69,-0.00,1150,1150,1150,1150,1501,1532,1510,1177,11803,1,1.00
-0.09,-0.06,-4.22,-3.12,-1.44,1.27,0.94,0.00,1150,1150,1150,1150,1501,1532,1510,1178,11803,1,0.96
-0.06,-0.07,-0.31,-6.01,-1.14,0.09,1.80,0.00,1150,1150,1150,1150,1501,1532,1510,1192,11803,1,0.97
-0.05,-0.04,5.69,5.54,0.22,-1.71,-1.66,-0.00,1150,1150,1150,1150,1501,1532,1510,1192,11803,1,0.97
-0.07,-0.06,2.55,3.27,-0.64,-0.76,-0.98,0.00,1150,1150,1150,1150,1501,1532,1509,1203,11803,1,0.97
-0.10,-0.07,-6.87,-5.07,0.72,2.06,1.52,0.00,1150,1150,1150,1150,1501,1532,1509,1203,11803,1,0.99
-0.05,-0.02,1.49,3.87,1.18,-0.45,-1.16,-0.00,1150,1150,1150,1150,1501,1532,1510,1207,11803,1,0.95
-0.05,-0.05,7.30,2.22,0.47,-2.19,-0.67,-0.00,1150,1150,1150,1150,1501,1532,1510,1215,11803,1,0.98
-0.12,-0.07,-10.98,-6.04,-0.44,3.29,1.81,0.00,1150,1150,1150,1150,1501,1532,1510,1215,11803,1,1.02
-0.06,-0.06,-4.39,0.93,-0.11,1.32,-0.28,0.00,1219,1219,1221,1221,1501,1532,1510,1220,11803,1,1.03
-0.04,-0.08,12.42,-2.76,2.24,-3.73,0.83,-0.00,1219,1219,1221,1221,1501,1532,1510,1220,11803,1,1.00
-0.13,-0.08,-10.70,0.03,0.52,3.21,-0.01,-0.00,1219,1219,1221,1221,1501,1532,1510,1223,11803,1,1.01
-0.08,-0.08,-6.45,3.80,0.62,1.94,-1.14,0.00,1219,1219,1221,1221,1501,1532,1510,1230,11803,1,1.00
-0.06,-0.13,5.43,-10.95,1.08,-1.63,3.28,-0.00,1219,1219,1221,1221,1501,1532,1510,1230,11803,1,1.03
-0.10,-0.03,-3.86,-2.98,1.21,1.16,0.89,-0.00,1219,1219,1221,1221,1501,1532,1510,1238,11803,1,1.04
-0.08,0.01,2.31,17.92,-1.16,-0.69,-5.38,0.00,1219,1219,1221,1221,1501,1532,1510,1238,11803,1,0.95
-0.10,-0.10,4.61,-1.95,0.13,-1.38,0.59,0.00,1219,1219,1221,1221,1501,1532,1510,1245,11803,1,1.01
-0.16,-0.12,-9.94,-19.96,1.32,2.98,5.99,-0.00,1219,1219,1221,1221,1501,1532,1510,1252,11803,1,1.01
-0.10,-0.00,-3.99,2.23,-1.04,1.20,-0.67,0.00,1254,1254,1250,1250,1501,1532,1510,1252,11803,1,0.98
-0.05,0.06,11.72,20.32,-1.94,-3.52,-6.10,0.00,1254,1254,1250,1250,1501,1531,1510,1259,11803,1,0.94
-0.10,-0.08,12.87,3.77,-0.31,-3.86,-1.13,0.00,1254,1254,1250,1250,1500,1532,1510,1259,11803,1,0.97
-0.19,-0.14,-10.73,-18.22,2.07,3.22,5.47,-0.00,1254,1254,1250,1250,1500,1532,1510,1265,11803,1,1.02
-0.19,-0.07,-20.89,-11.62,2.90,6.27,3.49,-0.00,1254,1254,1250,1250,1501,1531,1510,1276,11803,1,1.03
-0.12,-0.03,-7.20,7.59,0.32,2.16,-2.28,-0.00,1254,1254,1250,1250,1501,1531,1510,1276,11803,1,1.03
-0.04,0.05,15.32,20.82,-1.50,-4.60,-6.25,0.00,1254,1254,1250,1250,1501,1532,1510,1281,11803,1,0.98
-0.08,-0.05,18.54,3.11,-0.96,-5.56,-0.93,0.00,1254,1254,1250,1250,1501,1531,1510,1281,11803,1,0.99
-0.20,-0.13,-6.57,-16.25,2.68,1.97,4.88,-0.00,1282,1280,1288,1286,1501,1531,1510,1284,11803,1,1.05
-0.20,-0.09,-11.12,-9.53,2.63,3.34,2.86,-0.00,1282,1280,1288,1286,1501,1532,1511,1289,11803,1,1.05
-0.17,-0.07,-15.43,-6.06,2.62,4.63,1.82,-0.00,1282,1280,1288,1286,1501,1532,1511,1289,11803,1,0.90
-0.13,-0.08,-7.35,-1.23,-0.24,2.21,0.37,0.00,1282,1280,1288,1286,1501,1531,1510,1294,11803,1,1.05
-0.07,-0.05,9.29,5.83,-2.54,-2.79,-1.75,0.00,1282,1280,1288,1286,1501,1532,1510,1294,11803,1,0.92
-0.09,-0.05,4.52,3.10,-2.07,-1.36,-0.93,0.00,1282,1280,1288,1286,1501,1532,1511,1302,11803,1,0.97
-0.13,-0.06,-2.57,2.49,0.60,0.77,-0.75,0.00,1282,1280,1288,1286,1501,1532,1511,1304,11803,1,1.02
-0.11,-0.08,3.09,2.97,1.47,-0.93,-0.89,0.00,1282,1280,1288,1286,1501,1532,1511,1304,11803,1,1.06
-0.10,-0.07,-1.02,-2.88,3.49,0.31,0.86,-0.00,1303,1303,1303,1303,1501,1532,1512,1303,11803,1,1.02
-0.09,-0.10,0.82,-6.33,4.18,-0.25,1.90,-0.00,1303,1303,1303,1303,1501,1532,1512,1303,11803,1,0.93
-0.10,-0.13,1.33,-3.59,5.33,-0.40,1.08,-0.00,1303,1303,1303,1303,1501,1532,1512,1305,11803,1,0.96
-0.07,-0.11,11.12,-3.17,3.71,-3.33,0.95,-0.00,1303,1303,1303,1303,1501,1532,1511,1308,11803,1,1.05
-0.08,-0.07,9.10,0.31,2.23,-2.73,-0.09,-0.00,1303,1303,1303,1303,1501,1532,1511,1308,11803,1,1.03
-0.11,-0.08,3.78,-1.87,4.19,-1.13,0.56,-0.00,1303,1303,1303,1303,1501,1532,1511,1309,11803,1,0.99
-0.14,-0.09,-0.04,-4.85,3.31,0.01,1.45,0.00,1303,1303,1303,1303,1501,1532,1511,1309,11803,1,1.03
-0.11,-0.01,-0.14,6.08,2.10,0.04,-1.82,0.00,1303,1303,1303,1303,1501,1532,1511,1311,11803,1,1.09
-0.09,-0.04,-5.10,-6.19,2.33,1.53,1.86,-0.00,1303,1303,1303,1303,1501,1532,1508,1323,11803,1,1.05
-0.14,-0.10,-12.35,-9.61,3.04,3.71,2.88,-0.00,1326,1322,1324,1320,1501,1532,1508,1323,11803,1,0.99
-0.18,-0.04,-11.79,1.43,0.90,3.54,-0.43,0.00,1326,1322,1324,1320,1501,1532,1511,1326,11803,1,1.18
-0.16,0.01,-8.23,2.88,-0.67,2.47,-0.86,0.00,1326,1322,1324,1320,1501,1532,1511,1326,11803,1,1.11
-0.14,0.01,-6.69,1.17,0.66,2.01,-0.35,0.00,1326,1322,1324,1320,1501,1532,1503,1336,11803,1,0.98
-0.15,-0.01,-11.26,1.49,1.85,3.38,-0.45,0.00,1326,1322,1324,1320,1501,1532,1510,1336,11803,1,0.91
-0.17,-0.02,-16.91,-0.12,2.33,5.07,0.03,-0.00,1326,1322,1324,1320,1501,1532,1510,1336,11803,1,1.04
-0.18,-0.02,-20.95,4.23,2.29,6.28,-1.27,-0.00,1326,1322,1324,1320,1501,1532,1510,1339,11803,1,1.09
-0.20,0.02,-29.08,11.67,3.05,8.72,-3.50,-0.00,1326,1322,1324,1320,1501,1532,1510,1339,11803,1,1.10
-0.24,0.04,-33.14,16.16,3.04,9.94,-4.85,-0.00,1345,1343,1337,1335,1501,1532,1510,1340,11803,1,1.06
-0.23,0.05,-25.42,16.52,2.68,7.63,-4.96,-0.00,1345,1343,1337,1335,1501,1532,1499,1364,11803,1,1.01
-0.26,0.01,-22.50,8.25,2.96,6.75,-2.47,-0.00,1345,1343,1337,1335,1501,1532,1499,1364,11725,1,0.91
-0.26,-0.06,-22.68,5.30,3.29,6.81,-1.59,-0.00,1345,1343,1337,1335,1501,1532,1499,1366,11725,1,0.77
-0.26,-0.11,-14.91,0.15,3.78,4.47,-0.05,-0.00,1345,1343,1337,1335,1501,1532,1499,1366,11725,1,0.69
-0.24,-0.05,-10.56,9.35,3.81,3.17,-2.81,-0.00,1345,1343,1337,1335,1501,1532,1503,1364,11725,1,0.75
-0.23,-0.04,-6.27,6.75,4.64,1.88,-2.02,-0.00,1345,1343,1337,1335,1501,1532,1506,1365,11725,1,0.77
-0.20,-0.04,-2.83,6.40,5.14,0.85,-1.92,-0.00,1345,1343,1337,1335,1501,1532,1506,1365,11725,1,0.72
-0.18,-0.07,-0.18,-2.24,5.72,0.05,0.67,-0.00,1365,1365,1365,1365,1501,1532,1511,1365,11725,1,0.73
-0.18,-0.02,-3.70,3.27,4.94,1.11,-0.98,-0.00,1365,1365,1365,1365,1501,1532,1511,1365,11725,1,0.78
-0.16,0.04,-1.83,3.29,5.65,0.55,-0.99,-0.00,1365,1365,1365,1365,1501,1532,1511,1369,11725,1,0.93
-0.13,0.08,3.24,2.35,5.59,-0.97,-0.70,-0.00,1365,1365,1365,1365,1501,1532,1511,1373,11725,1,1.04
-0.10,0.15,7.58,5.61,5.85,-2.27,-1.68,-0.00,1365,1365,1365,1365,1501,1532,1511,1373,11725,1,1.10
-0.02,0.21,15.89,2.88,5.59,-4.77,-0.86,-0.00,1365,1365,1365,1365,1501,1532,1511,1374,11725,1,1.12
0.03,0.17,13.00,-15.20,5.59,-3.90,4.56,-0.00,1365,1365,1365,1365,1501,1532,1511,1374,11725,1,1.09
0.09,0.12,16.69,-10.02,3.89,-5.01,3.00,-0.00,1365,1365,1365,1365,1501,1532,1511,1383,11725,1,1.05
0.10,0.08,8.27,-5.20,1.70,-2.48,1.56,0.00,1365,1365,1365,1365,1501,1532,1511,1388,11725,1,1.07
0.08,0.14,2.38,2.11,1.96,-0.71,-0.63,0.00,1388,1388,1388,1388,1501,1532,1511,1388,11725,1,1.16
0.04,0.11,-5.77,5.67,-1.19,1.73,-1.70,0.00,1388,1388,1388,1388,1501,1532,1511,1391,11725,1,1.04
-0.00,0.02,-7.32,-4.67,-3.75,2.20,1.40,0.00,1388,1388,1388,1388,1501,1531,1511,1391,11725,1,0.94
-0.02,-0.12,-7.00,-6.19,-5.80,2.10,1.86,0.00,1388,1388,1388,1388,1501,1531,1511,1391,11725,1,0.89
-0.02,-0.16,-4.95,0.62,-4.61,1.49,-0.19,0.00,1388,1388,1388,1388,1501,1532,1512,1396,11725,1,0.80
-0.04,-0.09,-0.25,4.48,-0.60,0.07,-1.35,0.00,1388,1388,1388,1388,1501,1532,1512,1396,11725,1,0.92
-0.03,-0.12,9.60,-9.77,-0.14,-2.88,2.93,0.00,1388,1388,1388,1388,1501,1532,1512,1397,11725,1,1.08
-0.02,-0.16,24.57,-16.14,-0.66,-7.37,4.84,0.00,1388,1388,1388,1388,1501,1532,1512,1397,11725,1,1.27
-0.02,-0.29,33.08,-19.48,-0.16,-9.92,5.84,0.00,1392,1390,1410,1408,1501,1532,1512,1400,11725,1,1.22
-0.06,-0.38,28.29,-13.01,-0.83,-8.49,3.90,0.00,1392,1390,1410,1408,1501,1532,1511,1400,11725,1,1.05
-0.13,-0.42,23.36,-2.12,-2.46,-7.01,0.63,0.00,1392,1390,1410,1408,1501,1532,1511,1400,11725,1,0.86
-0.17,-0.42,20.73,6.34,-5.02,-6.22,-1.90,0.00,1392,1390,1410,1408,1501,1540,1512,1400,11725,1,0.84
-0.18,-0.53,9.88,-0.73,-5.90,-2.96,0.22,0.00,1392,1390,1410,1408,1501,1540,1512,1400,11725,1,1.03
-0.20,-0.59,-1.74,3.14,-5.37,0.52,-0.94,0.00,1392,1390,1410,1408,1501,1540,1512,1400,11725,1,0.94
-0.18,-0.51,-3.32,10.06,-3.43,1.00,-3.02,0.00,1392,1390,1410,1408,1502,1531,1512,1400,11725,1,1.14
-0.08,-0.66,5.92,-15.34,-3.41,-1.78,4.60,0.00,1392,1390,1410,1408,1502,1531,1512,1400,11725,1,1.15
0.08,-0.85,21.44,-26.18,-1.67,-6.43,7.85,0.00,1413,1399,1401,1387,1502,1531,1512,1400,11725,1,0.97
0.30,-0.84,34.00,-14.89,-0.95,-10.20,4.47,0.00,1413,1399,1401,1387,1501,1532,1512,1400,11725,1,0.93
0.41,-0.79,21.78,-5.35,-4.65,-6.53,1.61,0.00,1413,1399,1401,1387,1501,1532,1513,1400,11725,1,1.16
0.55,-0.85,22.09,-6.21,-10.03,-6.63,1.86,0.00,1413,1399,1401,1387,1500,1532,1513,1400,11725,1,1.09
0.70,-0.88,16.14,0.81,-10.22,-4.84,-0.24,0.00,1413,1399,1401,1387,1500,1532,1513,1400,11725,1,1.19
0.72,-0.94,7.19,-6.61,-10.57,-2.16,1.98,0.00,1413,1399,1401,1387,1501,1532,1516,1400,11725,1,1.10
0.79,-1.08,12.80,-10.48,-11.26,-3.84,3.15,0.00,1413,1399,1401,1387,1503,1532,1516,1400,11725,1,0.83
0.90,-1.22,9.72,-11.88,-6.64,-2.92,3.57,0.00,1413,1399,1401,1387,1503,1532,1516,1400,11725,1,0.91
0.97,-1.19,6.43,-1.12,-0.87,-1.93,0.34,0.00,1413,1399,1401,1387,1503,1532,1516,1400,11725,1,1.11
1.05,-1.17,4.47,-3.54,1.17,-1.34,1.06,-0.00,1399,1399,1401,1401,1503,1532,1516,1400,11725,1,1.28
1.15,-1.45,-1.05,-30.00,-2.19,0.31,9.00,0.00,1399,1399,1401,1401,1501,1532,1522,1400,11725,1,1.23
1.28,-1.76,-2.73,-20.97,-6.75,0.82,6.29,0.00,1399,1399,1401,1401,1501,1532,1522,1400,11725,1,0.75
1.43,-1.66,-2.32,5.80,-11.16,0.70,-1.74,0.00,1399,1399,1401,1401,1501,1532,1523,1400,11725,1,1.00
1.47,-1.72,-15.53,-11.16,-16.05,4.66,3.35,0.00,1399,1399,1401,1401,1501,1532,1527,1400,11725,1,1.29
1.59,-1.98,-8.06,-15.08,-18.26,2.42,4.52,0.00,1399,1399,1401,1401,1501,1532,1527,1400,11725,1,1.06
1.76,-2.11,-5.36,-9.62,-14.47,1.61,2.88,0.00,1399,1399,1401,1401,1501,1532,1528,1400,11725,1,1.11
1.87,-2.32,3.73,-22.86,-11.77,-1.12,6.86,0.00,1399,1399,1401,1401,1501,1532,1528,1400,11725,1,1.13
1.99,-2.58,17.97,-28.28,-10.59,-5.39,8.48,0.00,1405,1389,1411,1395,1501,1532,1528,1400,11725,1,1.06
2.06,-2.85,8.22,-25.73,-13.11,-2.47,7.72,0.00,1405,1389,1411,1395,1501,1532,1527,1400,11725,1,1.02
2.09,-3.03,1.65,-10.38,-14.08,-0.50,3.12,0.00,1405,1389,1411,1395,1501,1532,1527,1400,11725,1,1.12
2.07,-3.36,-8.34,-22.34,-16.75,2.50,6.70,0.00,1405,1389,1411,1395,1501,1532,1527,1400,11725,1,1.19
2.01,-3.86,-18.48,-30.90,-17.57,5.54,9.27,0.00,1405,1389,1411,1395,1501,1532,1527,1400,11725,1,0.92
1.98,-4.27,-21.52,-28.12,-13.01,6.46,8.44,0.00,1405,1389,1411,1395,1501,1532,1526,1400,11725,1,0.91
1.95,-4.75,-16.81,-42.39,-11.37,5.04,12.72,0.00,1405,1389,1411,1395,1501,1532,1526,1400,11725,1,0.95
1.89,-5.30,-11.08,-48.25,-11.70,3.33,14.48,0.00,1405,1389,1411,1395,1501,1532,1526,1400,11725,1,0.96
1.80,-5.79,-14.96,-43.19,-13.17,4.49,12.96,0.00,1408,1384,1416,1392,1501,1532,1525,1400,11725,1,1.12
1.59,-6.26,-21.01,-38.20,-15.90,6.30,11.46,0.00,1408,1384,1416,1392,1501,1532,1525,1400,11725,1,1.13
1.36,-6.80,-20.58,-45.80,-21.05,6.17,13.74,0.00,1408,1384,1416,1392,1501,1532,1524,1400,11725,1,1.27
1.07,-7.60,-28.32,-58.39,-25.03,8.49,17.52,0.00,1408,1384,1416,1392,1501,1532,1523,1400,11725,1,1.05
0.87,-8.23,-19.30,-44.60,-23.45,5.79,13.38,0.00,1408,1384,1416,1392,1501,1532,1523,1400,11725,1,0.53
0.60,-8.67,-14.09,-46.44,-20.53,4.23,13.93,0.00,1408,1384,1416,1392,1501,1532,1523,1400,11725,1,0.85
0.26,-9.12,-1.61,-52.90,-19.19,0.48,15.87,0.00,1408,1384,1416,1392,1501,1532,1523,1400,11725,1,1.15
-0.10,-9.70,-2.47,-57.45,-16.21,0.74,17.23,0.00,1408,1384,1416,1392,1501,1532,1523,1400,11725,1,1.12
-0.59,-10.29,-15.53,-46.77,-17.43,4.66,14.03,0.00,1408,1384,1416,1392,1501,1532,1523,1400,11725,1,0.90
-1.10,-10.74,-24.27,-35.55,-21.21,7.28,10.66,0.00,1394,1370,1430,1406,1501,1532,1523,1400,11725,1,1.02
-1.63,-11.19,-37.85,-39.98,-24.03,11.35,12.00,0.00,1394,1370,1430,1406,1501,1532,1522,1400,11725,1,1.12
-2.19,-11.81,-47.13,-46.16,-24.73,14.14,13.85,0.00,1394,1370,1430,1406,1501,1532,1522,1400,11725,1,0.77
-2.66,-12.17,-45.19,-23.67,-19.43,13.56,7.10,0.00,1394,1370,1430,1406,1501,1532,1521,1400,11725,1,0.82
-3.18,-12.56,-51.32,-40.04,-17.47,15.40,12.01,0.00,1394,1370,1430,1406,1501,1534,1520,1400,11725,1,0.93
-3.65,-12.94,-37.97,-32.36,-19.16,11.39,9.71,0.00,1394,1370,1430,1406,1501,1534,1520,1400,11725,1,1.02
-4.18,-13.19,-41.54,-19.67,-23.13,12.46,5.90,0.00,1394,1370,1430,1406,1501,1532,1520,1400,11725,1,1.23
-4.72,-13.54,-37.80,-25.58,-29.48,11.34,7.67,0.00,1394,1370,1430,1406,1501,1532,1520,1400,11725,1,1.02
-5.18,-13.83,-32.64,-21.22,-34.01,9.79,6.37,0.00,1394,1376,1424,1406,1501,1532,1519,1400,11725,1,0.84
-5.65,-14.00,-42.73,-6.73,-35.71,12.82,2.02,0.00,1394,1376,1424,1406,1501,1532,1519,1400,11725,1,0.79
-6.18,-13.96,-40.21,3.50,-35.41,12.06,-1.05,0.00,1394,1376,1424,1406,1501,1532,1519,1400,11725,1,0.97
-6.62,-14.06,-29.04,-9.76,-33.28,8.71,2.93,0.00,1394,1376,1424,1406,1501,1532,1519,1400,11725,1,1.12
-7.10,-14.26,-31.32,-20.27,-29.66,9.40,6.08,0.00,1394,1376,1424,1406,1501,1532,1519,1400,11725,1,0.85
-7.60,-14.25,-36.03,3.30,-28.34,10.81,-0.99,0.00,1394,1376,1424,1406,1501,1532,1518,1400,11725,1,0.76
-8.04,-14.21,-36.62,-2.11,-29.91,10.99,0.63,0.00,1394,1376,1424,1406,1501,1532,1517,1400,11725,1,1.09
-8.48,-14.29,-44.82,-6.53,-31.38,13.45,1.96,0.00,1394,1376,1424,1406,1501,1532,1517,1400,11725,1,1.15
-8.99,-14.25,-54.82,3.79,-35.37,16.45,-1.14,0.00,1383,1385,1415,1417,1501,1533,1517,1400,11725,1,0.81
-9.44,-14.02,-57.78,22.68,-41.32,17.33,-6.80,0.00,1383,1385,1415,1417,1501,1532,1517,1400,11725,1,1.08
-9.86,-13.88,-57.03,12.55,-46.43,17.11,-3.77,0.00,1383,1385,1415,1417,1501,1532,1517,1400,11725,1,1.30
-10.23,-13.96,-51.38,7.75,-48.37,15.41,-2.32,0.00,1383,1385,1415,1417,1501,1533,1517,1400,11635,1,0.88
-10.59,-13.73,-38.83,26.29,-48.54,11.65,-7.89,0.00,1383,1385,1415,1417,1501,1533,1517,1400,11635,1,0.84
-10.93,-13.49,-27.92,18.09,-47.36,8.38,-5.43,0.00,1383,1385,1415,1417,1502,1531,1517,1400,11635,1,1.15
-11.31,-13.38,-26.39,2.92,-45.40,7.92,-0.88,0.00,1383,1385,1415,1417,1502,1531,1517,1400,11635,1,0.93
-11.70,-13.08,-29.97,25.62,-42.50,8.99,-7.69,0.00,1383,1385,1415,1417,1502,1531,1517,1400,11635,1,0.72
-12.07,-12.66,-33.94,35.25,-41.70,10.18,-10.57,0.00,1383,1385,1415,1417,1501,1531,1517,1400,11635,1,0.96
-12.41,-12.44,-37.89,18.66,-43.14,11.37,-5.60,0.00,1384,1400,1400,1416,1501,1531,1517,1400,11635,1,1.07
-12.78,-12.18,-45.43,25.71,-46.19,13.63,-7.71,0.00,1384,1400,1400,1416,1501,1532,1517,1400,11635,1,0.82
-13.21,-11.58,-54.87,50.38,-51.53,16.46,-15.11,0.00,1384,1400,1400,1416,1501,1533,1517,1400,11635,1,0.90
-13.61,-11.07,-55.70,44.68,-58.87,16.71,-13.40,0.00,1384,1400,1400,1416,1501,1533,1517,1400,11635,1,1.22
-13.94,-10.77,-49.10,35.89,-62.59,14.73,-10.77,0.00,1384,1400,1400,1416,1501,1532,1517,1400,11635,1,1.12
-14.31,-10.32,-49.04,54.41,-61.80,14.71,-16.32,0.00,1384,1400,1400,1416,1501,1532,1517,1400,11635,1,0.97
-14.70,-9.69,-40.88,53.87,-60.85,12.26,-16.16,0.00,1384,1400,1400,1416,1499,1532,1516,1400,11635,1,1.03
-15.10,-9.22,-34.83,36.76,-59.10,10.45,-11.03,0.00,1384,1400,1400,1416,1499,1532,1516,1400,11635,1,1.02
-15.53,-8.81,-39.35,39.50,-55.84,11.81,-11.85,0.00,1377,1395,1405,1423,1499,1532,1517,1400,11635,1,0.91
-16.00,-8.18,-45.73,53.96,-52.14,13.72,-16.19,0.00,1377,1395,1405,1423,1501,1532,1517,1400,11635,1,0.98
-16.45,-7.63,-47.51,46.46,-50.28,14.25,-13.94,0.00,1377,1395,1405,1423,1501,1532,1517,1400,11635,1,0.78
-16.88,-7.15,-46.33,43.38,-52.70,13.90,-13.01,0.00,1377,1395,1405,1423,1501,1532,1517,1400,11635,1,0.61
-17.44,-6.42,-48.64,58.84,-58.18,14.59,-17.65,0.00,1377,1395,1405,1423,1501,1532,1517,1400,11635,1,1.05
-18.03,-5.70,-49.63,57.16,-64.43,14.89,-17.15,0.00,1377,1395,1405,1423,1501,1532,1517,1400,11635,1,1.39
-18.57,-5.12,-50.00,60.45,-66.98,15.00,-18.14,0.00,1377,1395,1405,1423,1501,1532,1517,1400,11635,1,0.96
-19.15,-4.40,-56.84,78.85,-68.24,17.05,-23.65,0.00,1377,1395,1405,1423,1501,1532,1517,1400,11635,1,0.75
-19.81,-3.68,-59.81,67.74,-71.02,17.94,-20.32,0.00,1363,1403,1397,1437,1501,1532,1520,1400,11635,1,0.95
-20.49,-3.02,-60.71,60.77,-70.67,18.21,-18.23,0.00,1363,1403,1397,1437,1501,1532,1520,1400,11635,1,0.98
-21.17,-2.29,-69.34,65.62,-65.72,20.80,-19.69,0.00,1363,1403,1397,1437,1501,1532,1523,1400,11635,1,0.82
-21.90,-1.51,-80.43,72.16,-62.27,24.13,-21.65,0.00,1363,1403,1397,1437,1501,1532,1524,1400,11635,1,0.99
-22.66,-0.81,-81.04,58.37,-64.19,24.31,-17.51,0.00,1363,1403,1397,1437,1501,1532,1524,1400,11635,1,1.00
-23.41,-0.06,-68.39,58.49,-67.22,20.52,-17.55,0.00,1363,1403,1397,1437,1501,1532,1524,1400,11635,1,0.95
-24.16,0.75,-53.71,60.45,-68.19,16.11,-18.14,0.00,1363,1403,1397,1437,1501,1532,1524,1400,11635,1,0.91
-24.91,1.51,-42.62,53.99,-68.95,12.78,-16.20,0.00,1363,1403,1397,1437,1501,1532,1524,1400,11635,1,0.93
-25.74,2.25,-40.29,53.98,-70.12,12.09,-16.20,0.00,1363,1403,1397,1437,1501,1532,1526,1400,11635,1,0.98
-26.64,2.98,-43.85,51.54,-71.27,13.16,-15.46,0.00,1349,1393,1407,1451,1501,1532,1526,1400,11635,1,0.94
-27.62,3.76,-63.59,67.59,-70.72,19.08,-20.28,0.00,1349,1393,1407,1451,1501,1532,1526,1400,11635,1,0.99
-28.59,4.53,-75.37,70.46,-71.36,22.61,-21.14,0.00,1349,1393,1407,1451,1501,1532,1526,1400,11635,1,0.96
-29.44,5.25,-71.66,68.10,-75.63,21.50,-20.43,0.00,1349,1393,1407,1451,1501,1532,1528,1400,11635,1,1.07
-30.28,5.76,-67.08,43.86,-79.78,20.12,-13.16,0.00,1349,1393,1407,1451,1500,1532,1529,1400,11635,1,0.94
-31.22,6.47,-70.67,67.38,-80.76,21.20,-20.21,0.00,1349,1393,1407,1451,1500,1532,1529,1400,11635,1,0.95
-32.16,6.96,-66.48,42.04,-81.64,19.94,-12.61,0.00,1349,1393,1407,1451,1500,1532,1529,1400,11635,1,0.85
-33.03,7.45,-67.30,43.80,-75.75,20.19,-13.14,0.00,1349,1393,1407,1451,1500,1532,1529,1400,11635,1,0.80
-33.99,8.07,-77.42,42.25,-72.49,23.23,-12.67,0.00,1351,1397,1403,1449,1500,1532,1530,1400,11635,1,1.11
-34.93,8.40,-75.88,33.93,-71.79,22.76,-10.18,0.00,1351,1397,1403,1449,1500,1532,1534,1400,11635,1,0.91
-35.56,9.00,-3.93,46.56,-72.08,1.18,-13.97,0.00,1351,1397,1403,1449,1500,1532,1534,1400,11635,1,0.84
-35.59,10.27,41.11,94.17,-66.66,-12.33,-28.25,0.00,1351,1397,1403,1449,1500,1532,1534,1400,11635,1,1.18
-35.58,11.33,21.86,71.86,-65.89,-6.56,-21.56,0.00,1351,1397,1403,1449,1500,1532,1534,1400,11635,1,0.67
-35.44,12.80,36.35,119.76,-70.97,-10.90,-35.93,0.00,1351,1397,1403,1449,1500,1532,1534,1400,11635,1,0.84
-35.32,13.97,11.00,97.03,-69.28,-3.30,-29.11,0.00,1351,1397,1403,1449,1500,1532,1535,1400,11635,1,0.84
-34.88,14.51,36.41,41.38,-97.88,-10.92,-12.41,0.00,1351,1397,1403,1449,1500,1532,1535,1400,11635,1,1.11
-34.05,14.75,60.50,21.39,-107.21,-18.15,-6.42,0.00,1412,1424,1376,1388,1500,1532,1540,1400,11635,1,0.93
-33.32,14.78,59.27,-6.11,-112.17,-17.78,1.83,0.00,1412,1424,1376,1388,1500,1532,1540,1400,11635,1,0.30
-32.52,14.89,80.41,15.48,-111.04,-24.12,-4.64,0.00,1412,1424,1376,1388,1500,1532,1543,1400,11635,1,0.92
-31.65,14.78,79.30,-19.88,-109.27,-23.79,5.96,0.00,1412,1424,1376,1388,1500,1532,1544,1400,11635,1,0.40
-30.49,14.85,116.60,14.45,-104.14,-34.98,-4.34,0.00,1412,1424,1376,1388,1500,1532,1544,1400,11635,1,0.34
-29.43,15.03,118.79,14.76,-96.86,-35.64,-4.43,0.00,1412,1424,1376,1388,1500,1532,1544,1400,11635,1,0.79
-28.29,15.02,106.93,-4.44,-100.23,-32.08,1.33,0.00,1412,1424,1376,1388,1500,1532,1544,1400,11635,1,1.01
-27.20,14.91,89.78,-9.06,-100.20,-26.93,2.72,0.00,1412,1424,1376,1388,1500,1532,1545,1400,11635,1,0.66
-26.02,14.99,93.28,2.91,-104.72,-27.98,-0.87,0.00,1412,1424,1376,1388,1500,1531,1546,1400,11635,1,0.92
-24.95,14.91,86.09,-18.04,-108.92,-25.83,5.41,0.00,1420,1428,1372,1380,1500,1531,1546,1400,11635,1,1.14
-23.86,14.65,83.00,-13.96,-110.03,-24.90,4.19,0.00,1420,1428,1372,1380,1500,1531,1546,1400,11635,1,0.77
-22.64,14.52,90.58,-15.04,-106.51,-27.17,4.51,0.00,1420,1428,1372,1380,1500,1532,1546,1400,11635,1,0.87
-21.48,14.32,103.18,-34.63,-101.67,-30.95,10.39,0.00,1420,1428,1372,1380,1500,1532,1550,1400,11635,1,1.16
-20.35,13.98,105.62,-44.03,-100.35,-31.69,13.21,0.00,1420,1428,1372,1380,1500,1532,1552,1400,11635,1,0.87
-19.35,13.69,87.33,-35.56,-101.93,-26.20,10.67,0.00,1420,1428,1372,1380,1500,1532,1552,1400,11635,1,0.67
-18.43,13.43,74.22,-22.84,-102.80,-22.27,6.85,0.00,1420,1428,1372,1380,1500,1532,1552,1400,11635,1,0.81
-17.65,13.14,56.16,-25.24,-104.05,-16.85,7.57,0.00,1420,1428,1372,1380,1500,1532,1552,1400,11635,1,1.09
-16.85,12.73,57.11,-28.08,-102.67,-17.13,8.42,0.00,1433,1415,1385,1367,1500,1532,1551,1400,11635,1,0.94
-16.06,12.33,55.29,-32.79,-98.90,-16.59,9.84,0.00,1433,1415,1385,1367,1500,1532,1551,1400,11635,1,0.97
-15.36,12.16,47.69,-18.22,-96.00,-14.31,5.47,0.00,1433,1415,1385,1367,1500,1532,1551,1400,11635,1,1.04
-14.69,11.87,36.08,-25.35,-97.36,-10.83,7.60,0.00,1433,1415,1385,1367,1500,1532,1551,1400,11635,1,1.31
-14.04,11.40,30.20,-30.56,-98.96,-9.06,9.17,0.00,1433,1415,1385,1367,1500,1532,1551,1400,11635,1,0.99
-13.47,11.05,12.42,-13.91,-101.53,-3.73,4.17,0.00,1433,1415,1385,1367,1500,1532,1551,1400,11635,1,0.92
-12.95,10.73,7.78,-14.58,-102.75,-2.33,4.37,0.00,1433,1415,1385,1367,1500,1532,1551,1400,11635,1,0.91
-12.46,10.36,15.67,-36.39,-100.02,-4.70,10.92,0.00,1433,1415,1385,1367,1500,1532,1551,1400,11635,1,1.21
-12.03,9.87,21.12,-41.17,-98.21,-6.34,12.35,0.00,1418,1394,1406,1382,1500,1532,1551,1400,11635,1,1.01
-11.61,9.45,16.04,-32.40,-98.12,-4.81,9.72,0.00,1418,1394,1406,1382,1500,1532,1551,1400,11635,1,0.97
-11.32,9.10,8.24,-22.50,-101.06,-2.47,6.75,0.00,1418,1394,1406,1382,1500,1532,1551,1400,11635,1,0.99
-11.39,9.02,-35.01,8.85,-96.65,10.50,-2.66,0.00,1418,1394,1406,1382,1500,1532,1551,1400,11635,1,1.38
-11.70,9.02,-49.95,19.35,-90.77,14.98,-5.81,0.00,1418,1394,1406,1382,1500,1532,1551,1400,11635,1,1.60
-11.87,8.78,-25.35,-4.35,-90.20,7.60,1.31,0.00,1418,1394,1406,1382,1500,1532,1551,1400,11635,1,1.04
-12.25,8.87,-30.35,13.06,-86.05,9.10,-3.92,0.00,1418,1394,1406,1382,1500,1532,1551,1400,11635,1,0.79
-12.50,9.06,-26.40,11.77,-86.79,7.92,-3.53,0.00,1418,1394,1406,1382,1500,1532,1549,1400,11635,1,1.03
-12.80,9.32,-16.81,19.67,-90.26,5.04,-5.90,0.00,1418,1394,1406,1382,1500,1532,1549,1400,11635,1,1.03
-13.16,9.66,-16.06,36.05,-91.28,4.82,-10.82,0.00,1386,1396,1404,1414,1500,1532,1549,1400,11635,1,0.77
-13.55,10.11,-29.81,41.59,-96.49,8.94,-12.48,0.00,1386,1396,1404,1414,1500,1532,1549,1400,11635,1,0.86
-13.93,10.67,-20.94,53.83,-97.11,6.28,-16.15,0.00,1386,1396,1404,1414,1500,1532,1549,1400,11635,1,0.96
-14.26,11.18,-14.32,47.13,-95.47,4.30,-14.14,0.00,1386,1396,1404,1414,1500,1532,1551,1400,11635,1,1.09
-14.62,11.59,-16.21,32.12,-92.10,4.86,-9.63,0.00,1386,1396,1404,1414,1501,1532,1551,1400,11635,1,0.93
-14.98,12.27,-15.48,56.33,-87.99,4.64,-16.90,0.00,1386,1396,1404,1414,1501,1532,1551,1400,11635,1,0.69
-15.42,12.96,-20.51,60.51,-89.31,6.15,-18.15,0.00,1386,1396,1404,1414,1501,1531,1551,1400,11635,1,1.07
-15.83,13.41,-20.26,41.05,-91.71,6.08,-12.31,0.00,1386,1396,1404,1414,1501,1532,1551,1400,11561,1,0.95
-16.14,14.06,-23.22,62.29,-95.62,6.96,-18.69,0.00,1386,1412,1388,1414,1501,1532,1549,1400,11561,1,0.90
-16.45,14.78,-33.64,55.60,-100.42,10.09,-16.68,0.00,1386,1412,1388,1414,1501,1532,1549,1400,11561,1,1.18
-16.72,15.20,-28.38,38.33,-103.40,8.51,-11.50,0.00,1386,1412,1388,1414,1501,1532,1549,1400,11561,1,1.04
-16.92,15.85,-16.60,52.25,-104.51,4.98,-15.68,0.00,1386,1412,1388,1414,1501,1532,1549,1400,11561,1,0.78
-17.04,16.36,-5.39,34.31,-103.92,1.62,-10.29,0.00,1386,1412,1388,1414,1501,1532,1549,1400,11561,1,1.04
-17.19,16.73,-3.95,17.87,-100.77,1.18,-5.36,0.00,1386,1412,1388,1414,1501,1532,1549,1400,11561,1,0.83
-17.43,17.38,-26.61,55.35,-90.12,7.98,-16.61,0.00,1386,1412,1388,1414,1501,1532,1549,1400,11561,1,1.15
-17.61,17.61,-25.71,16.15,-94.83,7.71,-4.84,0.00,1386,1412,1388,1414,1501,1532,1549,1400,11561,1,0.92
-17.81,18.18,-26.64,49.80,-100.60,7.99,-14.94,0.00,1379,1407,1393,1421,1501,1532,1549,1400,11561,1,0.89
-17.88,18.89,-14.86,51.57,-108.15,4.46,-15.47,0.00,1379,1407,1393,1421,1501,1532,1549,1400,11561,1,1.25
-17.96,19.21,-21.92,42.18,-110.56,6.58,-12.65,0.00,1379,1407,1393,1421,1501,1532,1548,1400,11561,1,1.04
-18.10,19.67,-26.35,44.46,-112.76,7.91,-13.34,0.00,1379,1407,1393,1421,1501,1534,1548,1400,11561,1,0.98
-18.23,20.09,-15.81,30.71,-112.47,4.74,-9.21,0.00,1379,1407,1393,1421,1501,1534,1548,1400,11561,1,0.88
-18.36,20.52,-20.82,42.36,-107.13,6.25,-12.71,0.00,1379,1407,1393,1421,1501,1532,1548,1400,11561,1,1.03
-18.54,20.97,-22.07,34.04,-103.90,6.62,-10.21,0.00,1379,1407,1393,1421,1501,1532,1548,1400,11561,1,1.18
-18.69,21.31,-12.85,31.07,-103.57,3.85,-9.32,0.00,1379,1407,1393,1421,1501,1532,1548,1400,11561,1,0.74
-18.87,21.81,-12.97,43.03,-109.37,3.89,-12.91,0.00,1379,1407,1393,1421,1501,1531,1548,1400,11561,1,0.98
-19.11,22.23,-5.78,30.23,-116.16,1.73,-9.07,0.00,1381,1411,1389,1419,1501,1531,1548,1400,11561,1,1.05
-19.34,22.75,-3.16,62.45,-117.48,0.95,-18.73,0.00,1381,1411,1389,1419,1500,1532,1548,1400,11561,1,0.93
-19.63,23.36,-13.42,55.39,-118.88,4.03,-16.62,0.00,1381,1411,1389,1419,1501,1531,1548,1400,11561,1,1.10
-19.92,23.62,-24.23,29.54,-120.02,7.27,-8.86,0.00,1381,1411,1389,1419,1501,1531,1548,1400,11561,1,0.86
-20.28,24.11,-33.81,53.21,-118.17,10.14,-15.96,0.00,1381,1411,1389,1419,1501,1531,1549,1400,11561,1,0.93
-20.58,24.52,-30.06,30.92,-117.38,9.02,-9.28,0.00,1381,1411,1389,1419,1501,1531,1549,1400,11561,1,1.07
-20.85,24.83,-25.23,30.04,-116.81,7.57,-9.01,0.00,1381,1411,1389,1419,1501,1531,1549,1400,11561,1,0.98
-21.11,25.20,-12.52,28.63,-119.30,3.76,-8.59,0.00,1381,1411,1389,1419,1501,1532,1549,1400,11561,1,0.96
-21.35,25.56,4.30,20.57,-121.27,-1.29,-6.17,0.00,1372,1398,1402,1428,1501,1532,1549,1400,11561,1,1.06
-21.60,25.86,9.76,22.07,-122.78,-2.93,-6.62,0.00,1372,1398,1402,1428,1501,1532,1549,1400,11561,1,0.93
-21.84,26.21,5.86,29.73,-121.85,-1.76,-8.92,0.00,1372,1398,1402,1428,1501,1532,1549,1400,11561,1,0.99
-22.10,26.58,-2.32,28.92,-122.64,0.70,-8.67,0.00,1372,1398,1402,1428,1501,1532,1549,1400,11561,1,1.07
-22.39,26.82,-20.74,20.60,-123.73,6.22,-6.18,0.00,1372,1398,1402,1428,1501,1532,1549,1400,11561,1,0.95
-22.68,27.09,-39.75,32.33,-123.94,11.92,-9.70,0.00,1372,1398,1402,1428,1501,1532,1549,1400,11561,1,1.02
-22.97,27.35,-44.47,31.24,-127.48,13.34,-9.37,0.00,1372,1398,1402,1428,1502,1532,1549,1400,11561,1,1.25
-23.21,27.44,-33.58,9.28,-131.40,10.07,-2.78,0.00,1372,1398,1402,1428,1502,1532,1549,1400,11561,1,1.07
-23.42,27.61,-25.96,15.27,-130.98,7.79,-4.58,0.00,1389,1397,1403,1411,1502,1531,1549,1400,11561,1,1.03
-23.57,27.76,-15.03,3.89,-128.54,4.51,-1.17,0.00,1389,1397,1403,1411,1502,1531,1549,1400,11561,1,1.14
-23.78,27.71,-16.54,-13.74,-125.75,4.96,4.12,0.00,1389,1397,1403,1411,1502,1531,1549,1400,11561,1,0.96
-24.06,27.87,-23.52,11.20,-122.10,7.06,-3.36,0.00,1389,1397,1403,1411,1502,1531,1549,1400,11561,1,0.75
-24.33,28.19,-24.79,18.01,-121.57,7.44,-5.40,0.00,1389,1397,1403,1411,1502,1531,1549,1400,11561,1,0.99
-24.61,28.28,-34.68,-6.28,-123.11,10.40,1.88,0.00,1389,1397,1403,1411,1501,1532,1549,1400,11561,1,1.12
-24.85,28.33,-37.94,3.80,-124.81,11.38,-1.14,0.00,1389,1397,1403,1411,1501,1532,1549,1400,11561,1,0.78
-25.09,28.67,-38.71,29.06,-129.06,11.61,-8.72,0.00,1389,1397,1403,1411,1501,1532,1549,1400,11561,1,0.84
-25.31,28.91,-37.92,16.90,-135.07,11.38,-5.07,0.00,1389,1397,1403,1411,1501,1532,1551,1400,11561,1,1.13
-25.45,28.98,-29.62,9.89,-140.03,8.89,-2.97,0.00,1393,1401,1399,1407,1501,1532,1551,1400,11561,1,0.99
-25.56,29.24,-26.87,39.88,-139.34,8.06,-11.96,0.00,1393,1401,1399,1407,1501,1532,1551,1400,11561,1,1.01
-25.67,29.63,-23.32,36.17,-137.71,7.00,-10.85,0.00,1393,1401,1399,1407,1501,1532,1551,1400,11561,1,1.17
-25.74,29.75,-18.21,13.76,-134.70,5.46,-4.13,0.00,1393,1401,1399,1407,1501,1532,1551,1400,11561,1,1.06
-25.86,29.88,-19.03,14.42,-131.96,5.71,-4.33,0.00,1393,1401,1399,1407,1501,1532,1552,1400,11561,1,0.84
-25.96,30.18,-14.66,24.21,-130.85,4.40,-7.26,0.00,1393,1401,1399,1407,1501,1532,1552,1400,11561,1,0.97
-26.01,30.39,-11.49,14.92,-130.58,3.45,-4.48,0.00,1393,1401,1399,1407,1501,1532,1553,1400,11561,1,1.02
-26.04,30.58,-16.71,23.01,-131.57,5.01,-6.90,0.00,1393,1401,1399,1407,1501,1532,1553,1400,11561,1,1.00
-26.19,30.91,-23.06,34.71,-137.12,6.92,-10.41,0.00,1386,1400,1400,1414,1501,1532,1553,1400,11561,1,1.12
-26.35,31.18,-19.86,27.29,-142.82,5.96,-8.19,0.00,1386,1400,1400,1414,1501,1532,1552,1400,11561,1,1.22
-26.41,31.23,-6.74,13.94,-148.40,2.02,-4.18,0.00,1386,1400,1400,1414,1501,1532,1552,1400,11561,1,0.98
-26.52,31.35,-9.40,21.48,-149.15,2.82,-6.44,0.00,1386,1400,1400,1414,1501,1532,1552,1400,11561,1,0.77
-26.68,31.71,-15.33,37.19,-149.22,4.60,-11.16,0.00,1386,1400,1400,1414,1501,1532,1552,1400,11561,1,0.94
-26.83,32.00,-12.80,27.91,-147.69,3.84,-8.37,0.00,1386,1400,1400,1414,1501,1532,1553,1400,11561,1,1.14
-26.95,32.01,-12.35,8.08,-144.73,3.70,-2.42,0.00,1386,1400,1400,1414,1501,1532,1553,1400,11561,1,0.93
-27.14,32.13,-15.20,13.00,-140.84,4.56,-3.90,0.00,1386,1400,1400,1414,1501,1532,1553,1400,11561,1,0.92
-27.37,32.37,-14.51,17.37,-138.59,4.35,-5.21,0.00,1391,1401,1399,1409,1501,1532,1553,1400,11561,1,1.13
-27.59,32.48,-14.14,3.55,-137.53,4.24,-1.06,0.00,1391,1401,1399,1409,1501,1532,1553,1400,11561,1,1.10
-27.84,32.55,-17.61,18.45,-145.08,5.28,-5.53,0.00,1391,1401,1399,1409,1501,1532,1553,1400,11561,1,1.10
-28.08,32.69,-7.83,16.42,-151.44,2.35,-4.93,0.00,1391,1401,1399,1409,1501,1532,1553,1400,11561,1,1.18
-28.27,32.73,-0.18,9.87,-154.08,0.05,-2.96,0.00,1391,1401,1399,1409,1501,1532,1553,1400,11561,1,1.08
-28.57,32.84,-10.73,16.47,-154.52,3.22,-4.94,0.00,1391,1401,1399,1409,1501,1532,1553,1400,11561,1,1.06
-28.95,32.96,-14.93,16.82,-154.98,4.48,-5.05,0.00,1391,1401,1399,1409,1501,1532,1553,1400,11561,1,1.10
-29.25,32.88,-8.11,2.39,-152.52,2.43,-0.72,0.00,1391,1401,1399,1409,1501,1532,1553,1400,11561,1,0.84
-29.24,32.95,20.57,17.00,-144.45,-6.17,-5.10,0.00,1391,1401,1399,1409,1501,1532,1553,1400,11561,1,0.82
-29.10,33.45,24.11,36.77,-141.17,-7.23,-11.03,0.00,1387,1409,1391,1413,1501,1532,1553,1400,11561,1,1.01
-29.01,34.00,21.19,45.66,-138.36,-6.36,-13.70,0.00,1387,1409,1391,1413,1501,1532,1554,1400,11561,1,1.06
-28.82,34.26,31.08,15.08,-141.33,-9.32,-4.53,0.00,1387,1409,1391,1413,1501,1532,1554,1400,11561,1,1.11
-28.68,34.57,17.42,27.36,-138.40,-5.23,-8.21,0.00,1387,1409,1391,1413,1501,1532,1554,1400,11561,1,0.97
-28.49,34.88,16.64,24.70,-144.60,-4.99,-7.41,0.00,1387,1409,1391,1413,1501,1532,1554,1400,11561,1,1.01
-28.33,35.40,17.44,38.39,-148.92,-5.23,-11.52,0.00,1387,1409,1391,1413,1501,1532,1554,1400,11561,1,1.30
-28.08,35.66,22.46,20.30,-151.33,-6.74,-6.09,0.00,1387,1409,1391,1413,1501,1532,1552,1400,11561,1,1.14
-27.97,35.87,10.25,19.36,-153.14,-3.08,-5.81,0.00,1387,1409,1391,1413,1501,1532,1552,1400,11561,1,0.93
-27.84,36.18,5.70,32.57,-153.91,-1.71,-9.77,0.00,1394,1414,1386,1406,1501,1532,1551,1400,11561,1,0.96
-27.68,36.51,7.93,29.43,-152.31,-2.38,-8.83,0.00,1394,1414,1386,1406,1501,1531,1551,1400,11561,1,1.07
-27.42,36.64,8.22,13.32,-146.28,-2.47,-4.00,0.00,1394,1414,1386,1406,1501,1531,1551,1400,11561,1,0.99
-27.29,36.80,3.02,10.41,-141.93,-0.91,-3.12,0.00,1394,1414,1386,1406,1501,1531,1551,1400,11561,1,0.83
-27.29,37.17,-6.12,28.53,-139.13,1.84,-8.56,0.00,1394,1414,1386,1406,1502,1532,1551,1400,11561,1,1.03
-27.28,37.40,-10.32,10.37,-138.96,3.10,-3.11,0.00,1394,1414,1386,1406,1502,1532,1551,1400,11561,1,1.24
-27.24,37.36,-14.02,-3.14,-141.00,4.21,0.94,0.00,1394,1414,1386,1406,1501,1532,1550,1400,11561,1,1.01
-27.18,37.42,-17.23,10.26,-145.28,5.17,-3.08,0.00,1394,1414,1386,1406,1501,1532,1550,1400,11561,1,0.71
-27.18,37.84,-17.73,30.86,-149.12,5.32,-9.26,0.00,1386,1404,1396,1414,1500,1532,1550,1400,11495,1,0.92
-27.15,38.13,-16.73,26.04,-153.63,5.02,-7.81,0.00,1386,1404,1396,1414,1500,1532,1550,1400,11495,1,1.25
-27.13,38.20,-16.40,15.94,-157.98,4.92,-4.78,0.00,1386,1404,1396,1414,1500,1532,1550,1400,11495,1,1.04
-27.06,38.46,-7.37,33.58,-158.28,2.21,-10.07,0.00,1386,1404,1396,1414,1501,1532,1552,1400,11495,1,0.89
-26.92,38.87,5.73,31.92,-157.25,-1.72,-9.58,0.00,1386,1404,1396,1414,1501,1532,1552,1400,11495,1,1.17
-26.77,39.07,15.53,10.10,-154.24,-4.66,-3.03,0.00,1386,1404,1396,1414,1501,1532,1553,1400,11495,1,1.14
-26.63,39.34,18.34,24.60,-149.35,-5.50,-7.38,0.00,1386,1404,1396,1414,1501,1532,1553,1400,11495,1,0.79
-26.50,39.75,14.59,41.19,-147.53,-4.38,-12.36,0.00,1386,1404,1396,1414,1501,1532,1553,1400,11495,1,1.03
-26.35,39.93,8.75,17.66,-150.48,-2.63,-5.30,0.00,1386,1404,1396,1414,1501,1532,1551,1400,11495,1,1.10
-26.23,40.16,4.37,24.56,-154.96,-1.31,-7.37,0.00,1394,1410,1390,1406,1501,1532,1551,1400,11495,1,0.90
-26.09,40.69,5.42,53.35,-157.83,-1.63,-16.00,0.00,1394,1410,1390,1406,1501,1533,1551,1400,11495,1,1.09
-25.93,41.05,7.06,34.16,-163.15,-2.12,-10.25,0.00,1394,1410,1390,1406,1501,1533,1551,1400,11495,1,1.35
-25.80,41.12,2.45,21.44,-166.24,-0.73,-6.43,0.00,1394,1410,1390,1406,1501,1533,1548,1400,11495,1,0.93
-25.59,41.39,14.16,42.62,-168.23,-4.25,-12.78,0.00,1394,1410,1390,1406,1501,1532,1548,1400,11495,1,0.54
-25.30,41.82,34.08,37.34,-167.92,-10.22,-11.20,0.00,1394,1410,1390,1406,1501,1532,1548,1400,11495,1,1.01
-25.03,42.04,48.99,7.92,-165.87,-14.70,-2.38,0.00,1394,1410,1390,1406,1501,1532,1548,1400,11495,1,1.09
-24.77,42.21,53.37,12.30,-159.96,-16.01,-3.69,0.00,1394,1410,1390,1406,1501,1532,1548,1400,11495,1,0.60
-24.51,42.66,47.88,44.90,-156.31,-14.36,-13.47,0.00,1389,1415,1385,1411,1501,1532,1546,1400,11495,1,0.78
-24.30,42.92,31.23,32.98,-157.74,-9.37,-9.89,0.00,1389,1415,1385,1411,1501,1532,1546,1400,11495,1,1.08
-24.01,43.06,27.49,28.85,-163.59,-8.25,-8.65,0.00,1389,1415,1385,1411,1501,1532,1546,1400,11495,1,0.85
-23.69,43.40,19.99,31.51,-166.60,-6.00,-9.45,0.00,1389,1415,1385,1411,1501,1532,1546,1400,11495,1,0.86
-23.48,43.77,7.73,30.51,-168.97,-2.32,-9.15,0.00,1389,1415,1385,1411,1501,1532,1546,1400,11495,1,1.26
-23.31,44.04,0.37,29.19,-170.00,-0.11,-8.76,0.00,1389,1415,1385,1411,1501,1532,1545,1400,11495,1,0.96
-23.03,44.30,3.59,34.84,-168.25,-1.08,-10.45,0.00,1389,1415,1385,1411,1501,1532,1544,1400,11495,1,0.89
-22.80,44.63,10.72,20.88,-166.41,-3.22,-6.26,0.00,1389,1415,1385,1411,1501,1532,1544,1400,11495,1,1.19
-22.55,44.88,29.20,9.26,-166.76,-8.76,-2.78,0.00,1406,1410,1390,1394,1501,1532,1544,1400,11495,1,1.00
-22.37,45.22,30.37,17.83,-164.44,-9.11,-5.35,0.00,1406,1410,1390,1394,1501,1533,1544,1400,11495,1,0.76
-22.28,45.68,10.28,36.55,-164.72,-3.08,-10.96,0.00,1406,1410,1390,1394,1501,1533,1543,1400,11495,1,1.03
-22.21,46.11,-6.33,53.92,-164.98,1.90,-16.18,0.00,1406,1410,1390,1394,1501,1532,1543,1400,11495,1,1.16
-22.05,46.34,-14.40,46.60,-166.44,4.32,-13.98,0.00,1406,1410,1390,1394,1501,1532,1543,1400,11495,1,0.99
-21.88,46.66,-17.98,41.42,-168.16,5.39,-12.43,0.00,1406,1410,1390,1394,1501,1532,1543,1400,11495,1,0.97
-21.69,46.91,-11.80,22.62,-169.26,3.54,-6.79,0.00,1406,1410,1390,1394,1501,1532,1543,1400,11495,1,1.12
-21.43,47.13,11.30,19.51,-170.13,-3.39,-5.85,0.00,1406,1410,1390,1394,1501,1532,1544,1400,11495,1,0.85
-21.19,47.43,23.81,25.26,-170.43,-7.14,-7.58,0.00,1406,1410,1390,1394,1501,1532,1544,1400,11495,1,1.08
-21.05,47.56,29.61,12.39,-173.47,-8.88,-3.72,0.00,1391,1411,1389,1409,1501,1532,1544,1400,11495,1,1.11
-20.93,47.76,34.52,20.78,-177.29,-10.35,-6.23,0.00,1391,1411,1389,1409,1501,1533,1543,1400,11495,1,0.90
-20.94,48.03,17.89,22.85,-177.80,-5.37,-6.86,0.00,1391,1411,1389,1409,1501,1532,1543,1400,11495,1,0.95
-21.04,48.17,-2.98,35.58,-175.75,0.89,-10.67,0.00,1391,1411,1389,1409,1501,1532,1543,1400,11495,1,0.80
-21.11,48.50,-5.79,39.46,-173.50,1.74,-11.84,0.00,1391,1411,1389,1409,1501,1532,1544,1400,11495,1,1.00
-21.18,48.66,-6.64,10.12,-171.58,1.99,-3.04,0.00,1391,1411,1389,1409,1501,1532,1544,1400,11495,1,1.20
-21.22,48.73,5.09,0.15,-170.65,-1.53,-0.05,0.00,1391,1411,1389,1409,1501,1532,1545,1400,11495,1,0.80
-21.26,49.08,8.66,24.49,-169.09,-2.60,-7.35,0.00,1391,1411,1389,1409,1501,1532,1545,1400,11495,1,0.96
-21.41,49.30,-5.99,17.44,-172.85,1.80,-5.23,0.00,1387,1401,1399,1413,1501,1532,1546,1400,11495,1,1.20
-21.54,49.47,-10.80,25.08,-176.97,3.24,-7.53,0.00,1387,1401,1399,1413,1501,1532,1546,1400,11495,1,1.05
-21.70,49.66,-17.04,22.63,-177.86,5.11,-6.79,0.00,1387,1401,1399,1413,1501,1532,1546,1400,11495,1,1.27
-21.91,49.70,-22.50,6.94,-175.14,6.75,-2.08,0.00,1387,1401,1399,1413,1501,1532,1546,1400,11495,1,0.99
-22.12,49.82,-31.02,14.32,-171.00,9.30,-4.29,0.00,1387,1401,1399,1413,1501,1532,1546,1400,11495,1,0.82
-22.36,49.87,-47.69,6.82,-168.43,14.31,-2.04,0.00,1387,1401,1399,1413,1501,1532,1546,1400,11495,1,1.27
-22.55,49.67,-39.95,-20.52,-169.92,11.99,6.16,0.00,1387,1401,1399,1413,1502,1532,1546,1400,11495,1,1.13
-22.67,49.62,-26.34,-8.08,-169.35,7.90,2.42,0.00,1387,1401,1399,1413,1502,1532,1546,1400,11495,1,0.92
-22.82,49.66,-20.05,-10.69,-172.45,6.01,3.21,0.00,1397,1391,1409,1403,1502,1532,1546,1400,11495,1,1.22
-23.03,49.50,-21.42,-15.70,-179.09,6.43,4.71,0.00,1397,1391,1409,1403,1502,1532,1546,1400,11495,1,1.19
-23.21,49.31,-21.70,-2.70,-182.46,6.51,0.81,0.00,1397,1391,1409,1403,1502,1532,1548,1400,11495,1,0.94
-23.44,49.22,-32.55,10.16,-183.16,9.77,-3.05,0.00,1397,1391,1409,1403,1501,1532,1548,1400,11495,1,1.19
-23.74,48.98,-37.63,-8.98,-182.97,11.29,2.69,0.00,1397,1391,1409,1403,1501,1532,1548,1400,11495,1,1.14
-24.00,48.72,-36.34,-13.10,-178.80,10.90,3.93,0.00,1397,1391,1409,1403,1501,1531,1546,1400,11495,1,0.83
-24.38,48.52,-50.73,-14.01,-176.87,15.22,4.20,0.00,1397,1391,1409,1403,1501,1531,1546,1400,11495,1,1.14
-24.71,48.30,-42.39,-12.85,-175.90,12.72,3.85,0.00,1397,1391,1409,1403,1501,1531,1545,1400,11495,1,1.08
-24.97,48.15,-39.70,0.04,-174.02,11.91,-0.01,0.00,1397,1391,1409,1403,1500,1531,1545,1400,11495,1,0.99
-25.37,48.02,-41.51,-7.34,-179.41,12.45,2.20,0.00,1393,1397,1403,1407,1500,1531,1545,1400,11495,1,1.18
-25.82,47.73,-41.93,-21.58,-186.94,12.58,6.48,0.00,1393,1397,1403,1407,1500,1532,1545,1400,11495,1,1.04
-26.23,47.62,-43.30,6.15,-189.35,12.99,-1.85,0.00,1393,1397,1403,1407,1500,1532,1545,1400,11495,1,0.84
-26.77,47.66,-59.93,27.46,-187.97,17.98,-8.24,0.00,1393,1397,1403,1407,1500,1532,1545,1400,11495,1,1.17
-27.37,47.53,-61.20,2.48,-187.53,18.36,-0.74,0.00,1393,1397,1403,1407,1500,1532,1544,1400,11495,1,0.95
-27.93,47.39,-60.15,3.14,-184.46,18.04,-0.94,0.00,1393,1397,1403,1407,1500,1532,1544,1400,11495,1,0.86
-28.61,47.48,-63.97,8.49,-181.30,19.19,-2.55,0.00,1393,1397,1403,1407,1500,1532,1544,1400,11495,1,1.16
-29.25,47.47,-57.03,10.79,-178.68,17.11,-3.24,0.00,1393,1397,1403,1407,1500,1539,1544,1400,11495,1,0.98
-29.81,47.67,-54.21,29.88,-177.57,16.26,-8.97,0.00,1378,1384,1416,1422,1500,1539,1544,1400,11495,1,0.88
-30.40,47.88,-51.95,23.54,-185.12,15.59,-7.06,0.00,1378,1384,1416,1422,1500,1539,1539,1400,11495,1,1.23
-31.03,48.08,-47.35,18.86,-190.68,14.21,-5.66,0.00,1378,1384,1416,1422,1500,1539,1539,1400,11495,1,1.29
-31.67,48.24,-57.29,27.38,-191.64,17.19,-8.21,0.00,1378,1384,1416,1422,1500,1533,1539,1400,11495,1,0.82
-32.38,48.60,-76.95,56.35,-191.75,23.08,-16.90,0.00,1378,1384,1416,1422,1500,1533,1539,1400,11495,1,1.10
-33.05,48.76,-66.66,34.94,-191.84,20.00,-10.48,0.00,1378,1384,1416,1422,1500,1533,1543,1400,11495,1,1.19
-33.66,48.98,-58.45,27.70,-187.16,17.53,-8.31,0.00,1378,1384,1416,1422,1500,1532,1543,1400,11495,1,0.96
-34.33,49.32,-71.30,29.56,-182.77,21.39,-8.87,0.00,1378,1384,1416,1422,1500,1532,1543,1400,11495,1,1.03
-35.02,49.47,-81.61,20.68,-182.99,24.48,-6.20,0.00,1370,1382,1418,1430,1500,1532,1543,1400,11495,1,1.07
-35.58,49.74,-70.50,29.81,-183.10,21.15,-8.94,0.00,1370,1382,1418,1430,1500,1532,1543,1400,11495,1,0.96
-36.08,50.06,-57.77,21.51,-184.53,17.33,-6.45,0.00,1370,1382,1418,1430,1500,1532,1543,1400,11495,1,1.01
-36.59,50.35,-45.23,17.54,-188.34,13.57,-5.26,0.00,1370,1382,1418,1430,1500,1532,1543,1400,11495,1,1.12
-37.12,50.49,-38.92,21.41,-190.50,11.68,-6.42,0.00,1370,1382,1418,1430,1500,1532,1543,1400,11495,1,1.02
-37.69,50.73,-47.06,36.71,-189.84,14.12,-11.01,0.00,1370,1382,1418,1430,1500,1533,1543,1400,11495,1,1.11
-38.26,50.92,-50.81,28.59,-190.25,15.24,-8.58,0.00,1370,1382,1418,1430,1500,1533,1543,1400,11495,1,1.15
-38.83,51.01,-55.03,14.31,-190.38,16.51,-4.29,0.00,1370,1382,1418,1430,1500,1533,1543,1400,11495,1,1.00
-39.41,51.15,-68.61,23.45,-189.65,20.58,-7.03,0.00,1370,1382,1418,1430,1500,1533,1543,1400,11495,1,1.06
-39.97,51.29,-82.55,28.78,-187.39,24.77,-8.63,0.00,1390,1390,1410,1410,1500,1533,1543,1400,11442,1,0.95
-40.49,51.44,-83.06,37.72,-186.54,24.92,-11.32,0.00,1390,1390,1410,1410,1500,1532,1543,1400,11442,1,1.09
-40.97,51.43,-73.50,10.42,-186.89,22.05,-3.13,0.00,1390,1390,1410,1410,1500,1532,1543,1400,11442,1,1.16
-41.41,51.47,-37.55,-1.12,-190.52,11.26,0.33,0.00,1390,1390,1410,1410,1500,1532,1543,1400,11442,1,1.01
-41.82,51.49,-25.93,0.11,-189.99,7.78,-0.03,0.00,1390,1390,1410,1410,1500,1532,1543,1400,11442,1,0.98
-42.23,51.44,-20.52,-0.04,-190.12,6.16,0.01,0.00,1390,1390,1410,1410,1500,1532,1543,1400,11442,1,0.99
-42.66,51.29,-22.23,-7.68,-190.17,6.67,2.30,0.00,1390,1390,1410,1410,1500,1532,1543,1400,11442,1,0.97
-43.13,51.18,-27.90,-4.22,-190.36,8.37,1.27,0.00,1390,1390,1410,1410,1500,1532,1543,1400,11442,1,1.13
-43.60,51.01,-36.37,-9.08,-191.75,10.91,2.72,0.00,1396,1386,1414,1404,1500,1532,1543,1400,11442,1,1.12
-44.07,50.86,-49.92,-3.73,-192.51,14.98,1.12,0.00,1396,1386,1414,1404,1500,1532,1543,1400,11442,1,0.90
-44.51,50.75,-65.31,9.28,-192.79,19.59,-2.78,0.00,1396,1386,1414,1404,1500,1532,1543,1400,11442,1,0.84
-44.94,50.68,-73.35,13.72,-196.54,22.00,-4.12,0.00,1396,1386,1414,1404,1500,1532,1543,1400,11442,1,1.16
-45.32,50.43,-71.37,-7.48,-201.54,21.41,2.24,0.00,1396,1386,1414,1404,1500,1532,1543,1400,11442,1,1.28
-45.55,50.12,-51.39,-12.73,-202.70,15.42,3.82,0.00,1396,1386,1414,1404,1500,1532,1543,1400,11442,1,0.96
-45.76,49.95,-36.80,-7.43,-200.42,11.04,2.23,0.00,1396,1386,1414,1404,1500,1532,1541,1400,11442,1,0.88
-46.04,49.73,-31.86,-21.44,-199.91,9.56,6.43,0.00,1396,1386,1414,1404,1500,1532,1541,1400,11442,1,1.06
-46.36,49.51,-28.37,-15.89,-199.69,8.51,4.77,0.00,1396,1388,1412,1404,1500,1532,1536,1400,11442,1,1.02
-46.59,49.25,-24.96,-8.69,-197.92,7.49,2.61,0.00,1396,1388,1412,1404,1500,1532,1536,1400,11442,1,0.89
-46.81,49.13,-25.43,-3.16,-196.85,7.63,0.95,0.00,1396,1388,1412,1404,1500,1532,1536,1400,11442,1,1.14
-47.06,48.86,-26.92,-21.01,-197.20,8.07,6.30,0.00,1396,1388,1412,1404,1500,1532,1536,1400,11442,1,1.29
-47.31,48.46,-30.76,-27.85,-199.70,9.23,8.35,0.00,1396,1388,1412,1404,1500,1532,1536,1400,11442,1,1.01
-47.52,48.14,-31.28,-15.41,-200.68,9.38,4.62,0.00,1396,1388,1412,1404,1500,1532,1531,1238,11442,1,0.61
-47.69,47.99,-38.04,-2.37,-203.61,11.41,0.71,0.00,1396,1388,1412,1404,1501,1532,1531,1238,11442,1,0.85
-47.81,47.76,-41.81,-7.62,-205.80,12.54,2.29,0.00,1396,1388,1412,1404,1501,1532,1507,1028,11442,1,1.09
-47.82,47.42,-32.05,-18.11,-207.71,9.61,5.43,0.00,1396,1388,1412,1404,1501,1532,1507,1027,11442,1,0.81
-47.75,47.14,-18.83,-18.92,-206.97,5.65,5.68,0.00,1150,1150,1150,1150,1501,1532,1507,1027,11442,1,0.75
-47.64,46.88,-3.68,-25.19,-205.69,1.10,7.56,0.00,1150,1150,1150,1150,1501,1531,1507,1027,11442,1,0.94
-47.55,46.65,12.36,-22.80,-204.26,-3.71,6.84,0.00,1150,1150,1150,1150,1501,1531,1507,1027,11442,1,1.10
-47.48,46.43,23.23,-26.74,-204.03,-6.97,8.02,0.00,1150,1150,1150,1150,1501,1531,1506,1027,11442,1,1.08
-47.42,46.31,26.09,-21.62,-204.36,-7.83,6.49,0.00,1150,1150,1150,1150,1501,1531,1506,1028,11442,1,0.99
-47.34,46.23,29.81,-16.42,-205.18,-8.94,4.93,0.00,1150,1150,1150,1150,1501,1531,1506,1028,11442,1,0.90
-47.24,46.15,27.23,-16.91,-205.65,-8.17,5.07,0.00,1150,1150,1150,1150,1501,1531,1506,1029,11442,1,0.69
-47.15,46.08,14.81,-11.67,-205.79,-4.44,3.50,0.00,1150,1150,1150,1150,1501,1531,1506,1029,11442,1,0.60
-47.78,46.84,-56.93,68.23,-170.65,17.08,-20.47,0.00,1150,1150,1150,1150,1501,1531,1506,1029,11442,1,1.11
-48.82,48.08,-53.36,87.33,-169.05,16.01,-26.20,0.00,1150,1150,1150,1150,1501,1532,1507,1029,11442,1,0.98
-49.92,49.38,-87.42,106.98,-161.73,26.23,-32.09,0.00,1150,1150,1150,1150,1501,1532,1507,1029,11442,1,0.70
-50.95,50.66,-75.18,126.85,-160.77,22.55,-38.05,0.00,1150,1150,1150,1150,1501,1532,1507,1029,11442,1,0.65
-51.93,52.13,-83.90,127.62,-157.77,25.17,-38.28,0.00,1150,1150,1150,1150,1501,1533,1507,1029,11442,1,0.65
-52.68,53.67,-71.17,147.27,-157.43,21.35,-44.18,0.00,1150,1150,1150,1150,1501,1533,1507,1028,11442,1,0.28
-53.46,55.22,-65.52,137.39,-153.60,19.65,-41.22,0.00,1150,1150,1150,1150,1501,1532,1507,1029,11442,1,0.27
-54.07,56.84,-39.61,133.47,-158.74,11.88,-40.04,0.00,1150,1150,1150,1150,1501,1532,1507,1029,11442,1,0.50
-54.75,58.46,-56.41,127.89,-161.89,16.92,-38.37,0.00,1150,1150,1150,1150,1501,1532,1506,1028,11442,1,0.41
